{
  "resourceType": "Bundle",
  "type": "searchset",
  "timestamp": "2025-02-12T12:29:02.017+00:00",
  "meta": {
    "lastUpdated": "2025-02-12T12:29:02.017+00:00",
    "versionId": "81a06acd-f555-4c9e-a192-153f779e3409"
  },
  "entry": [
    {
      "fullUrl": "https://b2b-fhir-api.letsgetchecked-stg2.com/DiagnosticReport/b2ee636b-0393-4292-aa8d-3d5e64963a7b",
      "search": {
        "mode": "match"
      },
      "resource": {
        "resourceType": "DiagnosticReport",
        "meta": {
          "versionId": "e608bcf0-3079-42ae-9a33-515f65464899",
          "lastUpdated": "2025-02-12T12:09:17.671+00:00"
        },
        "contained": [
          {
            "resourceType": "Patient",
            "id": "4288cc64-c54a-432a-a088-6db305d54781",
            "identifier": [
              {
                "system": "http://ihr.signify.com/participantId",
                "value": "484711"
              }
            ],
            "name": [
              {
                "family": "Doe",
                "given": [
                  "AutomationFirst"
                ]
              }
            ],
            "telecom": [
              {
                "system": "phone",
                "value": "5029997778"
              }
            ],
            "gender": "male",
            "birthDate": "1950-07-12",
            "address": [
              {
                "line": [
                  "2485 Ice Town Rd",
                  "Boston, Kentucky(KY)"
                ],
                "city": "Grand Prairie",
                "state": "Massachusetts",
                "postalCode": "40103",
                "country": "US"
              }
            ]
          },
          {
            "resourceType": "Practitioner",
            "id": "a127f493-51e5-477b-a09b-f104cce3b421",
            "identifier": [
              {
                "system": "http://hl7.org/fhir/sid/us-npi",
                "value": "1821020579"
              }
            ],
            "name": [
              {
                "family": "Mordkin",
                "given": [
                  "Robert"
                ]
              }
            ]
          },
          {
            "resourceType": "Observation",
            "id": "4512c165-7156-4ca0-ad2f-43c7a5ec1736",
            "status": "final",
            "category": [
              {
                "coding": [
                  {
                    "system": "http://terminology.hl7.org/CodeSystem/observation-category",
                    "code": "laboratory",
                    "display": "Laboratory"
                  }
                ],
                "text": "Laboratory"
              }
            ],
            "code": {
              "coding": [
                {
                  "system": "http://loinc.org",
                  "code": "14959-1",
                  "display": "Creatinine in Urine"
                }
              ],
              "text": "Creatinine in Urine"
            },
            "subject": {
              "reference": "#4288cc64-c54a-432a-a088-6db305d54781",
              "display": "AutomationFirst Doe"
            },
            "effectiveDateTime": "2025-02-12T12:06:56.246+00:00",
            "performer": [
              {
                "reference": "#a127f493-51e5-477b-a09b-f104cce3b421",
                "display": "Robert Mordkin"
              }
            ],
            "valueCodeableConcept": {
              "text": "SampleIDIssue"
            },
            "interpretation": [
              {
                "text": "SampleIDIssue"
              }
            ],
            "note": [
              {
                "text": "We were unable to process your sample. There was an issue confirming the sample and matching identification. Please contact LetsGetChecked Support."
              }
            ]
          },
          {
            "resourceType": "Observation",
            "id": "4fef3a66-9246-40a6-895a-740d5317cd50",
            "status": "final",
            "category": [
              {
                "coding": [
                  {
                    "system": "http://terminology.hl7.org/CodeSystem/observation-category",
                    "code": "laboratory",
                    "display": "Laboratory"
                  }
                ],
                "text": "Laboratory"
              }
            ],
            "code": {
              "coding": [
                {
                  "system": "http://loinc.org",
                  "code": "2160-0",
                  "display": "Creatinine"
                }
              ],
              "text": "Creatinine"
            },
            "subject": {
              "reference": "#4288cc64-c54a-432a-a088-6db305d54781",
              "display": "AutomationFirst Doe"
            },
            "effectiveDateTime": "2025-02-12T12:06:56.246+00:00",
            "performer": [
              {
                "reference": "#a127f493-51e5-477b-a09b-f104cce3b421",
                "display": "Robert Mordkin"
              }
            ],
            "valueCodeableConcept": {
              "text": "SampleIDIssue"
            },
            "interpretation": [
              {
                "text": "SampleIDIssue"
              }
            ],
            "note": [
              {
                "text": "We were unable to process your sample. There was an issue confirming the sample and matching identification. Please contact LetsGetChecked Support."
              }
            ]
          },
          {
            "resourceType": "Observation",
            "id": "0c597ce7-745c-4775-ac57-5bdff08577eb",
            "status": "final",
            "category": [
              {
                "coding": [
                  {
                    "system": "http://terminology.hl7.org/CodeSystem/observation-category",
                    "code": "laboratory",
                    "display": "Laboratory"
                  }
                ],
                "text": "Laboratory"
              }
            ],
            "code": {
              "coding": [
                {
                  "system": "http://loinc.org",
                  "code": "98979-8",
                  "display": "Estimated Glomerular Filtration Rate"
                }
              ],
              "text": "Estimated Glomerular Filtration Rate"
            },
            "subject": {
              "reference": "#4288cc64-c54a-432a-a088-6db305d54781",
              "display": "AutomationFirst Doe"
            },
            "effectiveDateTime": "2025-02-12T12:06:56.246+00:00",
            "performer": [
              {
                "reference": "#a127f493-51e5-477b-a09b-f104cce3b421",
                "display": "Robert Mordkin"
              }
            ],
            "valueCodeableConcept": {
              "text": "SampleIDIssue"
            },
            "interpretation": [
              {
                "text": "SampleIDIssue"
              }
            ],
            "note": [
              {
                "text": "We were unable to process your sample. There was an issue confirming the sample and matching identification. Please contact LetsGetChecked Support."
              }
            ]
          }
        ],
        "identifier": [
          {
            "system": "http://letsgetchecked.com/results/barcode",
            "value": "LGC-0297-0069-4299"
          },
          {
            "system": "http://letsgetchecked.com/results/alphaCode",
            "value": "AUEOMX"
          }
        ],
        "status": "final",
        "code": {
          "coding": [
            {
              "system": "http://loinc.org",
              "code": "98979-8",
              "display": "Estimated Glomerular Filtration Rate"
            },
            {
              "system": "http://loinc.org",
              "code": "2160-0",
              "display": "Creatinine"
            },
            {
              "system": "http://loinc.org",
              "code": "14959-1",
              "display": "Creatinine in Urine"
            }
          ]
        },
        "subject": {
          "reference": "#4288cc64-c54a-432a-a088-6db305d54781",
          "display": "AutomationFirst Doe"
        },
        "effectiveDateTime": "2025-02-12T12:06:56.246+00:00",
        "performer": [
          {
            "reference": "#a127f493-51e5-477b-a09b-f104cce3b421",
            "display": "Robert Mordkin"
          }
        ],
        "result": [
          {
            "reference": "#4512c165-7156-4ca0-ad2f-43c7a5ec1736"
          },
          {
            "reference": "#4fef3a66-9246-40a6-895a-740d5317cd50"
          },
          {
            "reference": "#0c597ce7-745c-4775-ac57-5bdff08577eb"
          }
        ],
        "id": "b2ee636b-0393-4292-aa8d-3d5e64963a7b"
      }
    }
  ],
  "total": 1,
  "link": [
    {
      "relation": "self",
      "url": "https://b2b-fhir-api.letsgetchecked-stg2.com/DiagnosticReport?identifier=http%3a%2f%2fletsgetchecked.com%2fresults%2fbarcode%7cLGC-0297-0069-4299&_total=accurate&_count=1&_skip=0"
    }
  ],
  "id": "655fb379-295b-42cc-8528-7678fac11a14"
}

